FP M5 Header Date: 3/15/2014
 Resolution (nm): 1.000000
Start Wavelength (nm): 380.000000
End: Wavelength (nm): 530.000000
Constant Wavelength (nm): 360.000000
Integration Time (ms): 100.000000
 Spectrum: Emisson
Sample:A
-1.954
-1.955
-1.954
-1.953
-1.953
-1.952
-1.950
-1.953
-1.950
-1.949
-1.948
-1.948
-1.948
-1.946
-1.944
-1.943
-1.941
-1.942
-1.940
-1.939
-1.937
-1.937
-1.934
-1.931
-1.931
-1.931
-1.929
-1.931
-1.929
-1.928
-1.928
-1.927
-1.927
-1.928
-1.924
-1.925
-1.922
-1.923
-1.922
-1.920
-1.919
-1.920
-1.917
-1.917
-1.915
-1.915
-1.913
-1.915
-1.915
-1.915
-1.912
-1.911
-1.914
-1.916
-1.914
-1.916
-1.916
-1.916
-1.916
-1.919
-1.918
-1.918
-1.919
-1.920
-1.921
-1.918
-1.920
-1.920
-1.920
-1.920
-1.920
-1.920
-1.922
-1.924
-1.921
-1.924
-1.923
-1.923
-1.922
-1.920
-1.923
-1.924
-1.925
-1.925
-1.927
-1.925
-1.929
-1.928
-1.930
-1.931
-1.929
-1.933
-1.932
-1.931
-1.934
-1.934
-1.934
-1.937
-1.934
-1.937
-1.935
-1.938
-1.937
-1.939
-1.939
-1.939
-1.938
-1.939
-1.939
-1.941
-1.941
-1.941
-1.942
-1.942
-1.940
-1.942
-1.941
-1.944
-1.944
-1.944
-1.945
-1.946
-1.946
-1.946
-1.946
-1.946
-1.946
-1.947
-1.948
-1.948
-1.948
-1.948
-1.948
-1.948
-1.950
-1.950
-1.949
-1.951
-1.949
-1.950
-1.950
-1.950
-1.950
-1.949
-1.952
-1.951
-1.949
-1.952
-1.952
-1.952
-1.952
