FP M5 Header Date: 3/15/2014
 Resolution (nm): 1.000000
Start Wavelength (nm): 380.000000
End: Wavelength (nm): 530.000000
Constant Wavelength (nm): 360.000000
Integration Time (ms): 100.000000
 Spectrum: Emisson
Sample:B
-1.958
-1.957
-1.958
-1.957
-1.957
-1.958
-1.958
-1.957
-1.958
-1.958
-1.957
-1.957
-1.958
-1.957
-1.957
-1.957
-1.957
-1.957
-1.958
-1.958
-1.958
-1.958
-1.958
-1.958
-1.958
-1.957
-1.958
-1.957
-1.958
-1.956
-1.958
-1.957
-1.957
-1.957
-1.958
-1.958
-1.958
-1.958
-1.958
-1.959
-1.958
-1.958
-1.958
-1.957
-1.958
-1.958
-1.959
-1.958
-1.958
-1.958
-1.958
-1.958
-1.958
-1.957
-1.957
-1.957
-1.957
-1.957
-1.957
-1.958
-1.958
-1.957
-1.958
-1.957
-1.958
-1.957
-1.956
-1.957
-1.957
-1.957
-1.957
-1.957
-1.956
-1.957
-1.957
-1.957
-1.956
-1.956
-1.956
-1.956
-1.956
-1.956
-1.957
-1.956
-1.956
-1.956
-1.957
-1.956
-1.956
-1.956
-1.956
-1.957
-1.956
-1.956
-1.955
-1.956
-1.957
-1.956
-1.956
-1.955
-1.956
-1.955
-1.956
-1.956
-1.956
-1.955
-1.955
-1.956
-1.956
-1.956
-1.956
-1.956
-1.955
-1.956
-1.956
-1.956
-1.956
-1.956
-1.956
-1.956
-1.956
-1.955
-1.956
-1.956
-1.956
-1.957
-1.956
-1.956
-1.956
-1.956
-1.956
-1.956
-1.952
-1.957
-1.956
-1.956
-1.956
-1.957
-1.957
-1.956
-1.957
-1.955
-1.957
-1.956
-1.955
-1.956
-1.956
-1.956
-1.956
-1.956
-1.955
