FP M5 Header Date: 8/6/2013
 Resolution (nm): 1.000000
Start Wavelength (nm): 380.000000
End: Wavelength (nm): 530.000000
Constant Wavelength (nm): 364.000000
Integration Time (ms): 100.000000
 Spectrum: Emisson
Sample:B
-1.935
-1.934
-1.928
-1.934
-1.933
-1.930
-1.936
-1.926
-1.935
-1.933
-1.923
-1.941
-1.935
-1.936
-1.937
-1.936
-1.932
-1.936
-1.939
-1.938
-1.933
-1.934
-1.934
-1.934
-1.934
-1.934
-1.934
-1.933
-1.926
-1.934
-1.931
-1.931
-1.934
-1.930
-1.936
-1.929
-1.934
-1.934
-1.931
-1.936
-1.937
-1.932
-1.926
-1.936
-1.930
-1.930
-1.932
-1.921
-1.934
-1.929
-1.936
-1.931
-1.929
-1.935
-1.933
-1.930
-1.932
-1.930
-1.935
-1.932
-1.927
-1.922
-1.932
-1.916
-1.927
-1.926
-1.930
-1.932
-1.930
-1.925
-1.923
-1.929
-1.926
-1.928
-1.929
-1.927
-1.916
-1.928
-1.923
-1.921
-1.917
-1.926
-1.918
-1.922
-1.919
-1.926
-1.910
-1.921
-1.915
-1.913
-1.916
-1.911
-1.916
-1.935
-1.929
-1.928
-1.915
-1.916
-1.918
-1.917
-1.923
-1.916
-1.913
-1.919
-1.914
-1.910
-1.913
-1.917
-1.909
-1.916
-1.911
-1.909
-1.919
-1.909
-1.916
-1.915
-1.922
-1.910
-1.917
-1.924
-1.918
-1.913
-1.914
-1.920
-1.913
-1.919
-1.919
-1.918
-1.923
-1.920
-1.925
-1.926
-1.924
-1.928
-1.928
-1.927
-1.920
-1.915
-1.926
-1.922
-1.917
-1.920
-1.934
-1.935
-1.929
-1.928
-1.922
-1.922
-1.906
-1.918
-1.917
